93	ThroughSeriesAnalysis4.0DATA	ngallego	29/05/2025	19:13:43	Number Of Statistical Points : 93	Number Of Statistical Regions : 28	XY Calibration : X*4.0 (um) : Y*4.0 (um)	Threshold Max : OFF	Threshold Min : -3.40282346638529E38	
Region			1		2		3		4		5		6		7		8		9		10		11		12		13		14		15		16		17		18		19		20		21		22		23		24		25		26		27		28
Description			_Background Rectangle (226,181 : 234,187) Colour(255) Label(1)		_Background Rectangle (276,170 : 281,179) Colour(255) Label(2)		_Background Rectangle (304,178 : 310,184) Colour(255) Label(3)		_Background Rectangle (284,193 : 292,200) Colour(255) Label(4)		_Background Rectangle (250,196 : 257,203) Colour(255) Label(5)		_Background Rectangle (201,210 : 209,219) Colour(255) Label(6)		_Background Rectangle (167,181 : 177,191) Colour(255) Label(7)		_Background Rectangle (117,161 : 126,169) Colour(255) Label(8)		_Background Rectangle (186,147 : 195,154) Colour(255) Label(9)		_Background Rectangle (204,134 : 211,142) Colour(255) Label(10)		_Background Rectangle (238,147 : 247,159) Colour(255) Label(11)		_Background Rectangle (255,131 : 262,140) Colour(255) Label(12)		_Background Rectangle (260,95 : 265,104) Colour(255) Label(13)		_Background Rectangle (295,110 : 302,121) Colour(255) Label(14)		_Background Rectangle (310,131 : 318,143) Colour(255) Label(15)		_Background Rectangle (230,93 : 237,101) Colour(255) Label(16)		_Background Rectangle (164,81 : 171,88) Colour(255) Label(17)		_Background Rectangle (147,91 : 154,101) Colour(255) Label(18)		_Background Rectangle (115,115 : 124,123) Colour(255) Label(19)		_Background Rectangle (73,120 : 82,129) Colour(255) Label(20)		_Background Rectangle (78,150 : 88,158) Colour(255) Label(21)		_Background Rectangle (44,129 : 51,138) Colour(255) Label(22)		_Background Rectangle (101,188 : 110,199) Colour(255) Label(23)		_Background Rectangle (94,209 : 102,217) Colour(255) Label(24)		_Background Rectangle (112,208 : 121,216) Colour(255) Label(25)		_Background Rectangle (130,200 : 141,210) Colour(255) Label(26)		_Background Rectangle (152,211 : 161,221) Colour(255) Label(27)		_Background Rectangle (140,220 : 146,228) Colour(255) Label(28)
Area (um*um)			768.0		720.0		576.0		896.0		784.0		1152.0		1600.0		1152.0		1008.0		896.0		1728.0		1008.0		720.0		1232.0		1536.0		896.0		784.0		1120.0		1152.0		1296.0		1280.0		1008.0		1584.0		1024.0		1152.0		1760.0		1440.0		768.0
Frame	Time (ms)		Mean Intensity 		Mean Intensity 		Mean Intensity 		Mean Intensity 		Mean Intensity 		Mean Intensity 		Mean Intensity 		Mean Intensity 		Mean Intensity 		Mean Intensity 		Mean Intensity 		Mean Intensity 		Mean Intensity 		Mean Intensity 		Mean Intensity 		Mean Intensity 		Mean Intensity 		Mean Intensity 		Mean Intensity 		Mean Intensity 		Mean Intensity 		Mean Intensity 		Mean Intensity 		Mean Intensity 		Mean Intensity 		Mean Intensity 		Mean Intensity 		Mean Intensity 		
0	906		10.7951		17.1756		13.1713		12.239		15.9716		12.5651		16.7094		13.674		12.8267		14.5435		14.9493		16.5137		22.4096		22.1647		17.2908		14.9179		15.6881		18.4321		16.2861		15.6876		18.9063		14.7603		19.5685		13.4594		16.2522		15.3619		16.078		14.715		
1	11228		11.7507		14.9804		11.8939		15.4766		18.8555		19.3551		14.17		14.8977		14.0528		14.6191		15.2136		18.4087		18.0476		17.4592		16.3628		18.477		20.4855		16.0775		20.2798		21.7086		15.0652		15.1593		17.0413		15.6423		15.0372		16.6487		15.2101		15.8144		
2	21228		17.7694		15.5867		14.6069		14.9028		17.0131		15.418		13.7798		15.6308		14.3422		17.2964		14.7072		18.6604		20.3417		17.5419		14.9366		18.1925		19.7971		16.0007		17.4684		21.3645		17.6759		15.0899		18.02		14.6852		13.1831		15.8904		17.6263		17.1152		
3	31227		13.4619		17.1178		13.6916		13.1589		16.0166		13.2969		15.1811		13.8612		15.4064		14.151		15.8999		17.8607		20.9698		25.9238		15.0301		13.7924		17.4635		18.0758		20.2549		17.2801		18.5122		16.6188		17.6033		12.6162		13.7583		16.8279		16.9711		20.2768		
4	41350		10.9403		15.4045		12.0412		12.235		13.3573		13.1188		15.2673		14.5815		18.0527		14.3449		14.8177		18.1998		21.5951		19.5314		14.2987		17.3412		16.7609		21.5907		16.08		16.5849		17.3089		16.2483		15.5267		14.5893		13.4576		17.7341		15.9725		15.9203		
5	51227		10.8506		16.5781		13.1797		12.8524		15.3394		12.9517		15.0053		15.6677		13.598		14.8635		15.2446		17.0677		23.9237		20.4467		15.4726		16.6233		18.3746		18.9738		21.2355		19.5365		15.5502		22.4979		14.8217		16.1493		15.1517		15.0476		17.4473		18.1942		
6	61226		10.678		19.0888		12.914		13.7217		14.1905		12.7856		15.604		14.4978		15.8351		13.707		15.1537		19.0635		17.7685		16.4522		25.4627		29.3206		16.1425		14.9056		15.4183		18.3933		19.3656		13.6974		17.0868		17.4644		14.2662		15.052		17.3782		17.6223		
7	71226		10.9258		15.3121		14.4995		16.6839		17.2465		13.2883		16.0336		14.8107		15.8024		15.8249		16.7773		19.0474		19.3193		23.0001		14.3867		15.7982		15.3357		14.3306		16.2806		17.8913		14.809		17.0247		15.9579		14.2443		17.1133		15.0609		15.2002		14.9924		
8	81226		14.0155		16.9432		14.0638		12.385		16.5108		14.8629		15.4719		13.3917		16.24		17.0381		15.6505		19.896		20.3058		19.25		14.3086		15.5542		13.8318		14.0978		19.082		20.3774		19.1069		18.4975		17.5676		14.3747		14.7769		16.4631		15.9891		15.9805		
9	91225		14.0308		16.6034		12.3605		12.6293		20.1237		14.4779		14.232		14.5291		13.7153		14.0833		16.0764		18.2335		17.1845		18.5417		14.9745		17.8844		19.7088		17.1123		15.9769		17.74		19.4747		19.1932		16.8151		17.9836		13.4819		17.2123		14.8874		16.7399		
10	101225		11.9698		16.5281		14.365		13.0036		14.912		15.0219		13.7654		15.6759		13.3827		14.911		15.7543		17.8673		17.4103		19.0099		15.104		17.8047		16.7597		18.2175		18.4086		15.2136		14.0682		13.8336		16.9443		14.5809		14.0755		15.0243		16.2617		19.857		
11	111224		11.6843		14.2836		13.0474		13.9817		13.8567		14.0002		16.0255		13.2397		14.2395		16.1523		13.976		18.5352		18.709		20.3337		14.9578		20.2473		16.5933		21.4098		19.7611		18.3112		13.4535		14.2487		15.8718		17.6428		16.5303		15.6619		15.3404		17.0025		
12	121225		11.1695		15.106		14.391		24.6359		15.6729		12.7132		14.4807		14.096		15.9477		15.705		15.4463		18.9368		20.0325		18.6809		15.092		27.4154		17.4876		18.1625		14.9762		18.6695		16.9547		18.4886		16.6128		15.3447		14.1591		14.88		14.5595		15.0594		
13	131224		13.283		16.2448		22.7772		13.2152		18.0386		12.7565		15.7203		16.2023		13.4921		15.2806		15.2566		16.9184		18.448		17.5258		15.2258		15.3197		15.2385		16.2956		16.1534		18.6044		17.6548		13.9151		17.5261		13.7666		14.27		17.2932		13.8148		15.8495		
14	141223		14.071		14.6995		16.2341		12.9586		15.4834		12.9261		15.0421		13.266		14.9098		13.694		16.3795		16.9271		17.321		22.5717		16.3486		14.4136		18.2681		14.8273		16.6998		19.3007		16.7169		23.613		16.9419		13.6579		13.4119		15.8154		15.3744		15.4934		
15	151223		11.5051		16.8183		13.9498		13.2441		14.0583		11.8464		14.1531		15.6969		14.2576		14.4916		14.1102		17.4969		23.3754		17.2546		19.0288		26.1774		18.106		15.8266		18.8293		20.1295		19.2567		17.97		19.5257		16.0758		14.7099		13.5803		17.9648		15.6676		
16	161223		11.3225		16.6076		14.8133		12.402		15.2005		12.7354		15.2991		14.8322		13.5927		13.7097		16.6299		16.6542		20.6694		16.5209		16.7032		14.9692		14.3223		15.3348		15.4779		17.7851		17.988		15.442		18.3603		14.571		16.655		14.8223		14.8051		15.7262		
17	171223		12.0179		16.363		12.5404		13.2207		14.4754		13.0046		13.8447		13.9295		13.8539		16.5603		14.5219		15.0278		19.3344		22.1158		14.1002		16.6689		14.9153		17.4696		17.0032		17.771		14.1652		15.1942		17.5616		14.5581		18.3344		15.0383		14.9544		22.1866		
18	217094		20.0679		22.9576		24.7572		24.1282		20.9468		20.9047		23.3385		21.717		21.8464		21.9627		22.5534		19.385		25.4059		19.8611		18.1886		23.5763		17.181		26.1286		25.0358		22.2284		26.7792		21.6364		19.0259		19.8316		20.7002		19.8036		21.8774		23.4505		
19	227080		16.3622		27.1616		26.4695		18.2012		21.7047		19.9759		19.8839		20.26		19.5562		23.9037		21.3529		21.4794		26.7112		25.6889		19.805		27.8716		21.6735		23.7368		23.4175		20.573		22.9066		22.5646		20.0187		25.2239		19.4808		20.7514		22.2587		17.6906		
20	237079		18.4979		18.9445		16.8583		19.2646		18.45		17.3712		23.0454		24.7755		19.1811		25.0437		20.2196		21.3529		23.82		19.1645		20.2263		20.9708		19.9914		19.9666		20.8016		22.2085		23.9543		22.3549		19.7867		22.5404		17.4321		19.8069		21.7581		19.1089		
21	247080		16.6995		20.3546		18.5837		15.6446		21.3834		17.5399		19.7443		20.144		21.1487		21.5219		18.3426		25.5579		17.3397		21.8368		18.4268		23.6907		22.2406		21.4537		20.9176		20.9311		20.9589		24.0782		20.2904		19.4877		18.3912		20.0687		23.5104		19.4559		
22	257079		22.0187		20.2972		16.4668		23.2138		20.7095		18.3672		21.5111		18.7089		20.7675		20.0374		22.2994		21.3261		32.2614		21.6307		17.7436		21.8935		22.9355		23.9856		24.9009		21.1154		25.8152		22.4662		17.9883		24.7477		19.3188		17.8595		20.2955		23.0037		
23	267078		16.7581		21.4857		20.6679		19.3454		19.6243		19.2671		19.2806		21.9704		18.0277		22.0018		21.0031		21.2835		19.7345		23.6897		21.7883		20.7554		19.2225		21.1983		25.8645		18.796		24.1499		18.4367		18.2444		22.192		18.4385		17.2837		17.8531		18.7024		
24	277079		15.6697		19.857		21.1015		22.5939		24.4681		17.4349		21.1533		18.852		19.5727		23.6601		18.5453		19.6917		23.0103		20.8427		16.9762		24.9357		24.1967		21.1332		19.6033		19.4763		21.1292		20.2293		18.4393		21.7268		17.7386		23.4859		21.7402		19.1962		
25	287079		14.5538		18.5151		22.5703		15.9605		22.7014		17.6953		20.8219		19.9528		22.8053		21.2343		18.1424		22.8543		25.035		19.6748		16.9922		20.1591		23.7412		21.2969		18.7027		22.746		18.8406		22.1611		17.4885		18.8253		19.7271		19.1573		23.3381		18.0447		
26	297078		25.5126		25.2478		19.7748		17.3442		20.1583		21.2912		19.7685		25.4597		24.6674		22.7621		20.6414		20.0168		24.7013		21.7133		18.8773		19.9176		25.0846		21.4823		20.7642		23.3982		21.3421		21.1628		21.9472		21.3498		22.8598		20.6927		20.1922		18.0602		
27	307078		19.2578		22.0209		21.3253		20.5068		21.4237		20.2743		21.0671		19.0224		21.9511		18.7734		21.3842		23.9178		25.4825		23.4124		17.4782		24.3487		31.4151		19.8606		21.8819		24.1102		22.3909		22.047		18.9613		19.558		19.389		20.0955		18.5238		21.1606		
28	317078		17.141		23.6614		20.1488		24.3463		20.0898		15.7725		17.7035		17.7322		22.5994		21.7103		19.6004		18.5119		23.6917		22.5812		17.6187		28.5893		26.8138		20.1954		23.3375		20.8452		18.9661		23.2676		19.9974		19.7713		19.0197		21.2514		16.4815		16.351		
29	327077		16.8176		17.2292		23.4393		16.1049		19.4107		20.2473		20.8658		19.3949		17.6933		20.8043		19.1954		21.6862		27.7917		21.7451		19.6958		21.6026		22.4692		19.5344		24.5218		19.5695		20.7098		23.5335		21.7614		18.8499		19.9709		22.1158		20.0528		20.4452		
30	337076		17.7816		21.411		25.3212		20.2062		21.4748		17.0391		21.2429		21.1877		21.3828		22.4076		20.8783		25.7725		25.9339		21.8058		18.1669		27.6802		25.1305		23.9306		24.7723		21.0147		23.4078		17.8979		16.7606		22.1828		17.7261		18.7095		20.976		17.5263		
31	347077		17.8746		25.4463		30.3021		19.1053		22.8392		21.1676		22.8305		20.8466		23.2171		20.9393		18.9927		20.5182		22.0247		19.0086		17.3646		22.3234		19.8439		21.3235		20.273		18.7095		19.242		20.8172		19.2594		19.0246		17.1442		18.7599		19.6257		18.2878		
32	357076		15.1818		18.6865		24.8232		19.8969		20.3173		18.7808		20.6952		19.0696		18.968		23.6049		19.6851		21.2244		20.8857		22.4798		17.001		21.1623		21.8705		17.6039		22.1469		25.9126		20.7779		18.2691		19.4127		22.9753		17.2654		20.6305		19.286		19.6105		
33	367075		16.5289		20.7163		23.8629		17.1452		22.1494		22.1669		21.9068		21.5709		22.8425		26.2526		19.1136		19.323		26.4161		23.3073		19.4569		20.2643		24.225		24.1796		20.9952		22.7324		19.8567		23.3055		19.2664		19.6792		19.1026		19.6739		23.4475		19.4909		
34	377076		19.1244		18.5166		22.0755		17.5799		21.6452		20.0088		21.2233		22.2774		25.4822		20.3612		23.94		21.9994		22.6108		21.2657		18.4404		24.3628		26.4132		21.8501		24.1364		20.8281		21.4874		17.4266		21.9146		22.3482		20.8804		19.8545		21.2546		20.0229		
35	387075		17.9504		23.7469		25.4368		25.77		22.2792		22.1754		21.6611		19.9497		20.9294		23.4679		19.7399		19.0239		23.7935		25.7343		20.2504		22.612		21.2589		21.4664		23.25		21.5436		20.7123		19.2583		19.8449		18.2473		19.4248		19.9304		18.5853		25.4185		
36	397075		15.9636		24.0425		22.0488		18.1683		21.5574		17.3814		26.7039		18.4935		17.3312		20.6694		19.5559		25.2792		22.1236		23.1066		22.1163		22.839		23.623		22.6657		20.1536		22.3735		22.8201		21.6329		22.1792		17.4447		21.4557		18.1051		22.9736		17.4008		
37	407075		14.7117		24.4366		18.3098		20.0796		18.6236		17.554		17.834		23.6856		26.4892		21.5239		21.4825		20.7461		20.4133		24.6557		19.0716		22.68		19.5073		21.6006		22.733		24.1139		19.905		16.8816		18.6275		17.6951		20.3782		17.4434		18.0006		16.3749		
38	417075		18.1598		24.7817		25.3597		19.4193		22.1673		17.3217		20.9334		22.7739		18.4766		22.8913		21.002		21.0932		24.3598		21.4207		17.1446		29.3864		25.1992		20.3961		20.9629		20.8545		21.794		21.6887		19.7085		19.1602		19.9023		18.7462		19.6277		21.6597		
39	427074		25.7346		21.9179		20.8792		19.0281		19.9072		20.9218		17.3938		24.5472		19.237		19.0177		22.2163		21.7961		22.1632		21.9477		17.8655		20.026		20.9704		23.5913		23.249		25.001		19.2274		18.6332		18.3531		20.8625		18.5454		18.54		18.6907		19.5851		
40	437074		18.212		23.5903		24.6983		18.833		20.7532		20.9716		21.0538		21.2006		19.2187		23.9607		20.8709		17.9395		24.1033		19.1776		17.4846		25.4236		23.6294		17.871		23.1336		22.3714		20.242		21.6504		19.9673		17.7432		18.4021		19.0038		21.3899		19.7047		
41	486938		22.6316		26.7357		16.5631		34.6738		26.8878		25.8879		26.6456		23.439		26.6977		21.6784		25.3845		24.308		27.4515		27.5335		31.0119		27.6479		22.0436		24.5368		23.4309		23.5396		29.3656		25.9983		25.2571		24.2314		28.554		23.9118		24.2202		29.9746		
42	496932		23.0609		24.7085		21.5529		26.7583		25.4328		25.0489		20.5187		20.0142		20.8701		24.0652		23.104		22.3649		20.6434		24.8232		28.2015		24.0249		24.2557		26.6601		18.7848		24.3856		23.1166		18.4967		23.3969		25.0341		21.8778		24.057		20.7078		20.838		
43	506931		30.8705		19.3124		24.8432		22.5653		27.9059		27.9085		28.1217		24.2502		25.0298		26.1997		24.1267		23.1224		23.1708		22.673		26.4237		27.3401		23.6583		24.0224		27.2072		29.1467		24.1516		21.2102		23.1922		30.9038		23.6999		19.3746		27.4721		25.1543		
44	516931		23.3093		28.4128		25.8328		25.5577		27.5252		27.6929		22.2244		23.0463		26.5178		25.3875		24.0489		25.8571		22.5512		22.8454		22.9036		23.0369		23.3634		26.3475		25.5335		21.5356		35.2767		22.5119		20.6725		24.8461		22.9304		24.114		24.8487		28.0487		
45	526930		23.8052		23.2915		22.2682		24.2789		24.0898		21.7272		25.1713		19.672		25.5316		24.045		23.3623		24.0984		33.4496		29.8162		24.884		24.6235		27.991		25.5259		22.6814		24.4148		23.0879		21.6958		22.6316		20.3232		21.2896		23.5511		21.019		20.6437		
46	536930		28.4805		24.8156		30.7364		26.6086		26.3655		21.9689		23.4357		24.2842		22.1681		25.1846		21.77		22.3714		36.8376		28.4524		26.3429		31.2502		24.1267		27.7888		25.8803		21.3857		27.7929		20.0397		19.574		20.9218		21.8291		22.5169		24.5622		19.1239		
47	546931		23.7592		23.3215		22.6117		21.5553		32.3362		22.3734		21.4461		22.7989		23.8551		22.7538		21.8588		24.436		29.2984		22.4879		25.5785		27.8608		22.6711		25.2588		25.5194		24.09		25.987		23.784		18.7783		21.389		22.5622		21.9193		22.2189		20.5824		
48	556930		23.1631		24.16		30.7916		25.6298		24.8071		22.9923		22.5223		25.9647		22.6287		22.543		25.5014		26.0595		27.928		29.1961		25.4535		27.271		23.0486		24.8793		24.7582		22.5535		25.5812		26.8598		22.7491		22.6223		26.1911		18.6604		20.7544		25.2182		
49	566930		21.4089		20.3782		24.4651		20.9085		23.0431		27.5014		24.4918		21.8418		23.7927		26.7684		22.468		26.1308		21.4444		19.5897		26.5088		27.3327		23.2573		23.3049		27.4437		23.4114		23.9603		21.4356		21.7133		21.3456		24.9042		18.6617		22.8552		23.0777		
50	576928		23.824		23.467		31.8444		22.2528		21.4334		20.7189		23.4372		21.116		21.6321		23.1379		21.7288		28.2123		28.4797		23.5856		24.8771		24.7976		28.4026		23.0683		25.6115		25.2411		27.1749		19.2518		22.3092		22.5636		20.9206		22.2131		22.7916		18.0088		
51	586929		18.3283		25.0182		24.5871		26.5859		27.2976		26.0076		25.9318		21.3051		21.16		28.5552		25.3582		24.9955		24.8366		20.1293		23.5993		23.3051		26.972		24.7798		21.5575		25.409		24.5049		18.8739		21.5455		24.1412		24.7873		23.3053		24.1561		24.5186		
52	596928		19.4398		22.9521		19.06		24.0906		25.6156		20.9339		19.5634		22.0403		25.5317		26.1636		20.71		24.0738		25.6467		20.8688		19.9216		23.9542		25.3389		25.6007		25.6238		27.2586		20.9913		23.7587		22.7686		25.824		19.1481		21.9844		23.3102		20.0904		
53	606928		21.9998		27.3743		26.6979		27.8096		25.7995		25.3005		24.7098		21.532		25.189		27.7605		19.3501		24.0312		26.1865		26.1367		23.662		26.6414		24.4356		23.2281		24.7557		16.2231		21.665		20.1905		26.4173		21.9414		23.5041		22.7357		22.5104		23.9493		
54	616928		26.1852		25.6247		21.5456		26.4319		20.777		18.8855		19.3391		23.129		22.0126		25.5832		24.1314		23.8606		25.3647		24.042		23.9862		19.4403		19.8548		24.219		24.3805		21.6919		30.7574		23.1037		21.9058		20.4747		23.8855		24.8367		24.7417		24.352		
55	626927		20.5507		19.2099		28.1189		20.7932		22.7724		20.3174		20.1843		21.1984		23.1103		25.423		23.8901		20.8957		26.6378		21.9012		23.6559		23.6681		18.9259		24.8532		22.2104		21.5053		23.197		20.6673		25.9639		20.1941		21.617		22.0281		23.5677		27.6851		
56	636928		20.3728		25.5341		24.7925		18.8927		23.9806		22.3427		21.7595		19.8201		22.2948		22.1129		22.3278		21.7931		26.9535		24.5885		21.8426		22.6571		22.2998		25.8271		22.2599		21.4458		25.0321		20.7888		19.8812		20.9499		18.0638		22.0151		23.0424		20.4496		
57	646927		25.2026		22.8437		19.6915		22.863		25.3104		24.1908		20.7656		23.5677		25.1007		25.5651		22.5504		28.3664		27.8921		23.6565		21.5692		26.8385		20.1684		25.5235		27.392		26.0291		24.0812		18.933		21.2073		21.1956		21.343		19.8208		22.3799		19.3741		
58	656926		21.2157		26.9034		25.0433		22.2094		25.6276		19.5745		22.0901		22.5996		23.5077		22.8116		22.1862		26.9195		23.0517		23.0167		23.3093		29.1951		24.0925		19.7351		23.9522		25.8789		21.5699		20.8023		22.5153		17.8923		20.8095		20.1685		22.123		21.9749		
59	666926		24.4045		24.3134		25.6978		26.2928		24.804		22.1595		21.6158		24.309		22.3405		23.025		20.4075		22.8888		20.704		21.2469		23.2241		26.6012		22.7106		24.3511		22.574		21.691		21.7292		22.8291		19.3374		26.6397		19.5557		23.2824		27.3971		25.5676		
60	676926		19.6516		21.0525		21.7785		23.6688		23.0272		21.968		21.9919		21.0641		22.6437		24.7525		28.4092		21.8657		17.6753		23.3449		22.2577		23.361		29.2457		23.8764		22.5029		21.5008		23.3449		20.0337		22.2628		17.3413		19.6537		22.1205		24.862		25.6935		
61	686926		19.4672		22.9895		20.6796		21.9029		28.9589		18.5328		21.7984		21.1213		23.717		28.0455		23.9023		21.8101		24.4266		23.3934		20.5693		22.2454		26.0732		25.684		22.5553		22.2862		22.7315		21.1382		24.3699		20.9327		22.7573		22.1103		22.2232		22.9423		
62	696925		24.8523		19.6198		24.577		20.9259		21.1867		21.505		22.7155		20.4583		23.0286		23.9365		22.9243		23.8682		20.5609		21.8159		21.2494		23.0902		26.975		24.4211		23.8105		29.1307		21.3323		23.6036		19.9783		18.1743		18.9266		21.1261		24.4718		20.6462		
63	706925		19.5161		23.4002		25.1714		20.5256		19.3295		21.3211		21.7885		24.5333		26.8084		26.1016		23.0523		22.8979		27.3062		28.2457		20.1383		24.1164		27.7899		21.839		20.3883		22.4687		23.3044		22.0061		20.6684		20.4288		19.8571		18.9785		23.6544		20.8806		
64	716925		21.194		21.3112		23.9721		21.9167		23.3882		21.2905		22.7619		22.0841		22.3295		19.7806		23.9578		20.8013		22.7311		23.2117		24.573		30.4843		23.519		26.6815		23.1035		23.6206		23.0771		21.2702		20.4375		22.1573		20.2148		21.3432		21.7072		16.8778		
65	726924		18.9795		27.2706		20.0311		21.6786		22.3127		25.4332		19.7522		22.2023		19.7114		25.2057		20.2898		20.4259		23.3707		24.4709		20.2448		18.9077		21.5964		20.7265		24.8479		20.7868		22.1072		18.2527		21.5872		23.1535		18.6404		23.0369		19.9173		20.116		
66	780693		18.7615		22.6731		22.2552		20.234		18.7333		17.3378		21.8525		20.2556		22.3062		25.6199		20.753		22.8605		20.2169		23.1865		21.0578		22.569		27.25		21.622		19.1354		20.9281		23.9593		26.6569		20.1871		18.653		20.3431		19.1649		21.3676		16.5224		
67	790688		20.681		24.5336		26.1129		22.8318		27.6063		19.7814		20.4454		26.4403		20.5137		22.6001		20.1976		20.2429		22.852		21.4291		25.6274		28.8115		22.2068		24.1311		22.1598		21.7766		22.6401		24.2747		19.9721		17.0394		19.4974		21.5788		24.6738		19.3547		
68	800688		17.4652		27.7046		22.3437		18.752		19.9647		20.0152		21.6184		23.398		22.251		18.947		18.9181		19.4258		21.7373		22.1625		21.1673		21.3405		24.2158		21.4957		26.2286		22.7591		22.9487		21.274		20.8832		20.4386		20.3007		18.0294		24.5867		20.2936		
69	810688		20.1478		23.3717		23.1921		17.6128		20.0593		17.1103		23.4989		19.2931		18.8312		25.0454		22.9284		21.1798		23.1151		25.0297		24.4046		26.4193		21.1036		27.588		26.6818		23.9525		22.7104		23.7074		21.0342		18.3413		18.8518		19.9084		23.2077		22.7726		
70	820687		20.6824		23.7933		25.391		18.5924		18.5165		19.8759		22.1335		20.2871		18.6462		21.9531		19.4397		22.6083		22.1313		23.3379		23.9226		22.5381		20.1926		19.4597		24.8558		17.2827		23.2647		18.4688		20.6293		22.6845		17.3093		20.7211		21.8375		21.3088		
71	830687		20.6992		30.6596		20.8313		16.4479		24.3722		18.6447		19.1141		21.7376		23.0848		23.4805		21.9429		21.9506		19.148		23.7863		21.7519		24.6499		21.9956		24.8563		27.7518		25.3035		21.9709		18.3555		18.922		21.1992		19.3601		20.113		21.3498		18.0665		
72	840687		22.27		20.5233		20.8127		21.2164		23.6299		19.4311		23.6923		21.8177		22.1188		20.74		21.3347		22.8939		27.8374		24.4768		22.8729		23.3394		25.7663		22.2952		23.1232		22.9726		20.2127		18.3861		18.8316		18.5957		20.6021		19.2839		20.3971		20.7096		
73	850686		23.7029		25.8029		20.9973		18.9249		19.8626		21.0587		21.6359		20.488		24.9378		26.7417		18.872		21.6038		20.7046		24.4654		22.6754		24.0923		28.9203		23.687		20.6881		21.424		25.4119		19.7784		18.7008		18.2867		20.5063		21.0427		24.0313		19.547		
74	860685		19.8307		25.0655		20.9075		29.3289		23.3126		20.1914		20.4995		24.2289		22.3009		28.9486		19.9166		21.385		28.7894		24.1106		21.4105		17.76		22.6251		23.4048		20.7641		23.1335		21.86		20.649		21.7067		16.1349		18.4141		20.0408		19.0636		18.1105		
75	870687		19.3569		24.4971		18.0858		18.1167		23.3585		21.9412		24.3772		24.4458		19.5673		21.7352		19.9051		18.9142		26.5565		20.2612		19.8201		23.1224		20.306		23.5561		21.5554		21.9268		21.1599		24.7991		20.7262		15.848		17.4196		20.2338		21.0303		20.0141		
76	880686		17.5945		20.211		24.7672		19.6311		20.9559		21.6034		21.011		20.3944		19.8475		25.4639		21.834		20.3323		29.4685		20.7069		22.8534		21.8031		23.7083		23.8123		24.7656		24.2611		20.1978		19.6315		19.7658		18.5477		20.2093		20.4849		20.1729		18.1895		
77	890684		17.1499		23.8096		25.8165		18.6527		22.7836		23.2899		22.7346		22.997		21.9007		26.3708		23.5651		24.4328		21.2282		19.6021		21.3054		21.7386		24.7227		23.2677		24.0698		22.0858		22.6724		16.8253		22.5459		21.2592		18.3918		22.7815		23.6733		22.1767		
78	900685		22.7219		25.856		28.9365		21.7046		22.204		19.6287		23.1634		21.7064		19.0127		22.1554		21.0401		20.9971		22.9427		23.4797		19.6213		26.7727		19.1328		22.9041		22.9662		22.2285		20.5911		17.6031		20.0942		18.9035		16.4633		20.63		18.5294		19.2233		
79	910684		23.5554		22.8734		24.9019		23.1534		20.7039		26.7937		26.039		22.5071		20.1301		23.5916		20.6777		20.8143		28.1885		24.5288		21.9174		22.7106		27.3706		21.5409		22.5516		20.1263		20.2873		25.985		23.855		17.3637		19.5864		20.0567		22.9701		23.3462		
80	920684		17.1281		25.8678		23.5453		17.8034		25.3951		19.1197		21.173		20.6772		24.0077		21.2457		21.3306		24.7941		23.375		21.459		21.216		22.9998		29.1988		20.1477		17.9438		22.036		20.3719		20.7901		22.7155		17.0394		19.5331		20.5704		23.8445		18.073		
81	930695		16.7589		24.6531		25.271		20.6623		24.2667		19.1539		22.3015		20.8538		20.2176		23.6963		17.4801		22.3836		27.771		20.159		18.495		19.0662		22.7476		25.1943		22.0366		20.6803		22.0217		20.6383		21.5454		18.1853		19.3307		23.1999		20.753		23.1633		
82	940684		19.1988		19.577		22.038		19.6569		24.4691		20.7499		19.0956		20.9372		18.2546		23.8127		20.4147		21.3237		19.202		24.1516		20.7323		21.8877		21.3694		21.7597		20.2293		20.7866		25.7204		20.6076		18.5049		21.4388		21.3888		19.4162		16.6197		21.4713		
83	950683		20.673		19.9615		23.353		18.9636		20.3051		18.4106		22.8734		23.0273		22.0229		21.4404		20.3214		23.3184		26.3428		22.8807		21.9774		21.982		16.0064		21.1168		23.6454		20.1031		23.4183		20.2302		22.6703		17.5785		17.7187		20.9399		22.6254		21.0955		
84	1001973		18.8491		23.0067		26.3174		19.5515		22.0916		21.422		18.887		23.7592		21.055		22.4194		22.2326		19.8299		22.3744		18.1455		21.1138		24.1608		24.1359		24.2583		20.0138		19.811		20.6151		24.4252		21.0729		20.9171		19.4035		20.2012		21.7788		19.3636		
85	1011963		19.5829		22.1074		18.9475		24.3691		29.6973		24.0571		19.8519		19.8213		21.5255		22.1564		19.4276		21.2733		27.7546		24.8307		21.7334		21.7398		24.755		24.7306		20.0272		20.2235		20.8375		20.2034		18.2472		22.1083		20.6677		22.0631		22.6188		19.259		
86	1021962		17.8387		19.3909		22.3587		18.8088		22.2346		22.6374		17.9011		19.8936		19.7914		22.0601		18.7437		20.7152		20.2704		21.6529		19.609		23.0728		25.9788		22.9129		20.4291		19.2208		23.2142		19.1378		18.8811		19.6317		18.1323		19.6511		20.1672		20.5368		
87	1031961		20.1389		30.4894		26.4353		19.6384		27.9197		20.8203		18.0821		18.6451		19.997		23.4754		20.6495		19.5779		21.3298		23.8943		19.8857		21.7567		22.7436		24.4076		25.5198		18.3305		19.7169		19.0952		18.8812		17.6432		20.4661		18.341		22.9433		21.7997		
88	1041962		16.7757		24.8859		22.6835		21.0713		23.2797		20.073		21.3252		18.0201		23.9244		22.3924		20.5171		21.6407		19.811		20.8118		23.0655		20.6007		24.1591		25.2296		22.2792		22.8086		20.1335		22.247		17.9809		19.4247		22.7324		22.3963		22.3089		23.4217		
89	1051962		19.3479		23.7323		27.287		19.8509		20.0336		19.9041		19.9059		25.691		18.8927		21.1334		20.4983		22.059		20.7788		20.862		21.6437		20.5631		23.1417		21.4867		19.3329		20.2519		19.3427		23.2928		17.3767		19.2348		20.4135		21.4749		23.292		23.5371		
90	1061961		16.6188		21.9695		22.2482		20.7902		22.6005		20.7825		20.2133		18.4561		23.1261		22.8605		21.4183		22.2951		24.0822		24.5149		22.0399		21.4747		18.8715		28.2334		21.3536		22.2741		20.8595		21.0348		18.2957		23.3721		22.2657		21.0913		19.4955		17.0643		
91	1072063		17.742		23.1947		22.4831		21.536		23.0455		19.0296		19.2949		20.5759		17.166		22.6087		19.2608		19.7317		22.1903		23.9023		18.3063		19.4411		30.2064		18.5625		21.667		22.4423		20.6133		20.4466		18.873		20.9642		18.8709		21.3225		22.5807		18.0151		
92	1081961		17.7975		29.1541		22.59		18.7391		20.2747		20.9608		20.1553		21.6088		21.5556		20.4265		20.758		24.2395		23.0627		21.7379		18.6698		20.6381		27.7255		22.7544		22.1105		21.2137		23.8727		20.1933		16.5228		18.4017		20.5263		17.9516		17.854		15.5507		
